[{"rt":1459,"stimulus":"\n      <p> Welcome, this is a demo Flanker Experiment</p>\n      <p> If you participate in this experiment, your data will be saved to a repository on the open science foundation. </p>\n      <p> All data is completely anonymous.</p>\n      ","response":" ","trial_type":"html-keyboard-response","trial_index":0,"time_elapsed":1460,"internal_node_id":"0.0-0.0","ID":"0bjfoo9obp"},{"rt":941,"stimulus":"\n        <p>In this experiment, your task is to identify the middle letter as fast and accurately as possible.</p>\n        <p>For example if you saw:</p>\n        <p>F F F </p>\n        <p>You would press the F key on the keyboard as quickly as you can.</p>\n        <br>\n        <p>For example if you saw:</p>\n        <p>H G H </p>\n        <p>You would press the G key on the keyboard as quickly as you can. </p>\n        <p> This demo experiment has 24 trials and takes less than a minute. </p>\n        <p>Press any key to begin.</p>\n      ","response":" ","trial_type":"html-keyboard-response","trial_index":1,"time_elapsed":2404,"internal_node_id":"0.0-1.0","ID":"0bjfoo9obp"},{"rt":null,"stimulus":"<div style=\"font-size:60px;\">+</div>","response":null,"task":"fixation","trial_type":"html-keyboard-response","trial_index":2,"time_elapsed":3905,"internal_node_id":"0.0-2.0-0.0","ID":"0bjfoo9obp"},{"rt":815,"stimulus":"<div style=\"font-size:60px;\">D H D</div>","response":"h","task":"response","distractor":"incompatible","correct_response":"h","trial_type":"html-keyboard-response","trial_index":3,"time_elapsed":4720,"internal_node_id":"0.0-2.0-1.0","ID":"0bjfoo9obp","correct":true},{"rt":null,"stimulus":"<div style=\"font-size:60px;\">+</div>","response":null,"task":"fixation","trial_type":"html-keyboard-response","trial_index":4,"time_elapsed":5221,"internal_node_id":"0.0-2.0-0.1","ID":"0bjfoo9obp"},{"rt":557,"stimulus":"<div style=\"font-size:60px;\">H H H</div>","response":"h","task":"response","distractor":"compatible","correct_response":"h","trial_type":"html-keyboard-response","trial_index":5,"time_elapsed":5779,"internal_node_id":"0.0-2.0-1.1","ID":"0bjfoo9obp","correct":true},{"rt":null,"stimulus":"<div style=\"font-size:60px;\">+</div>","response":null,"task":"fixation","trial_type":"html-keyboard-response","trial_index":6,"time_elapsed":6280,"internal_node_id":"0.0-2.0-0.2","ID":"0bjfoo9obp"},{"rt":803,"stimulus":"<div style=\"font-size:60px;\">J J J</div>","response":"j","task":"response","distractor":"compatible","correct_response":"j","trial_type":"html-keyboard-response","trial_index":7,"time_elapsed":7084,"internal_node_id":"0.0-2.0-1.2","ID":"0bjfoo9obp","correct":true},{"rt":null,"stimulus":"<div style=\"font-size:60px;\">+</div>","response":null,"task":"fixation","trial_type":"html-keyboard-response","trial_index":8,"time_elapsed":7585,"internal_node_id":"0.0-2.0-0.3","ID":"0bjfoo9obp"},{"rt":487,"stimulus":"<div style=\"font-size:60px;\">H J H</div>","response":"j","task":"response","distractor":"incompatible","correct_response":"h","trial_type":"html-keyboard-response","trial_index":9,"time_elapsed":8074,"internal_node_id":"0.0-2.0-1.3","ID":"0bjfoo9obp","correct":false},{"rt":null,"stimulus":"<div style=\"font-size:60px;\">+</div>","response":null,"task":"fixation","trial_type":"html-keyboard-response","trial_index":10,"time_elapsed":8576,"internal_node_id":"0.0-2.0-0.4","ID":"0bjfoo9obp"},{"rt":735,"stimulus":"<div style=\"font-size:60px;\">J H J</div>","response":"h","task":"response","distractor":"incompatible","correct_response":"h","trial_type":"html-keyboard-response","trial_index":11,"time_elapsed":9311,"internal_node_id":"0.0-2.0-1.4","ID":"0bjfoo9obp","correct":true},{"rt":null,"stimulus":"<div style=\"font-size:60px;\">+</div>","response":null,"task":"fixation","trial_type":"html-keyboard-response","trial_index":12,"time_elapsed":9813,"internal_node_id":"0.0-2.0-0.5","ID":"0bjfoo9obp"},{"rt":780,"stimulus":"<div style=\"font-size:60px;\">F F F</div>","response":"f","task":"response","distractor":"compatible","correct_response":"f","trial_type":"html-keyboard-response","trial_index":13,"time_elapsed":10594,"internal_node_id":"0.0-2.0-1.5","ID":"0bjfoo9obp","correct":true},{"rt":null,"stimulus":"<div style=\"font-size:60px;\">+</div>","response":null,"task":"fixation","trial_type":"html-keyboard-response","trial_index":14,"time_elapsed":11095,"internal_node_id":"0.0-2.0-0.6","ID":"0bjfoo9obp"},{"rt":847,"stimulus":"<div style=\"font-size:60px;\">D D D</div>","response":"d","task":"response","distractor":"compatible","correct_response":"d","trial_type":"html-keyboard-response","trial_index":15,"time_elapsed":11944,"internal_node_id":"0.0-2.0-1.6","ID":"0bjfoo9obp","correct":true},{"rt":null,"stimulus":"<div style=\"font-size:60px;\">+</div>","response":null,"task":"fixation","trial_type":"html-keyboard-response","trial_index":16,"time_elapsed":12445,"internal_node_id":"0.0-2.0-0.7","ID":"0bjfoo9obp"},{"rt":891,"stimulus":"<div style=\"font-size:60px;\">F F F</div>","response":"f","task":"response","distractor":"compatible","correct_response":"f","trial_type":"html-keyboard-response","trial_index":17,"time_elapsed":13337,"internal_node_id":"0.0-2.0-1.7","ID":"0bjfoo9obp","correct":true},{"rt":null,"stimulus":"<div style=\"font-size:60px;\">+</div>","response":null,"task":"fixation","trial_type":"html-keyboard-response","trial_index":18,"time_elapsed":13838,"internal_node_id":"0.0-2.0-0.8","ID":"0bjfoo9obp"},{"rt":680,"stimulus":"<div style=\"font-size:60px;\">D J D</div>","response":"j","task":"response","distractor":"incompatible","correct_response":"h","trial_type":"html-keyboard-response","trial_index":19,"time_elapsed":14518,"internal_node_id":"0.0-2.0-1.8","ID":"0bjfoo9obp","correct":false},{"rt":null,"stimulus":"<div style=\"font-size:60px;\">+</div>","response":null,"task":"fixation","trial_type":"html-keyboard-response","trial_index":20,"time_elapsed":15019,"internal_node_id":"0.0-2.0-0.9","ID":"0bjfoo9obp"},{"rt":747,"stimulus":"<div style=\"font-size:60px;\">D F D</div>","response":"f","task":"response","distractor":"incompatible","correct_response":"f","trial_type":"html-keyboard-response","trial_index":21,"time_elapsed":15767,"internal_node_id":"0.0-2.0-1.9","ID":"0bjfoo9obp","correct":true},{"rt":null,"stimulus":"<div style=\"font-size:60px;\">+</div>","response":null,"task":"fixation","trial_type":"html-keyboard-response","trial_index":22,"time_elapsed":16269,"internal_node_id":"0.0-2.0-0.10","ID":"0bjfoo9obp"},{"rt":591,"stimulus":"<div style=\"font-size:60px;\">J J J</div>","response":"j","task":"response","distractor":"compatible","correct_response":"j","trial_type":"html-keyboard-response","trial_index":23,"time_elapsed":16860,"internal_node_id":"0.0-2.0-1.10","ID":"0bjfoo9obp","correct":true},{"rt":null,"stimulus":"<div style=\"font-size:60px;\">+</div>","response":null,"task":"fixation","trial_type":"html-keyboard-response","trial_index":24,"time_elapsed":17362,"internal_node_id":"0.0-2.0-0.11","ID":"0bjfoo9obp"},{"rt":803,"stimulus":"<div style=\"font-size:60px;\">H H H</div>","response":"h","task":"response","distractor":"compatible","correct_response":"h","trial_type":"html-keyboard-response","trial_index":25,"time_elapsed":18165,"internal_node_id":"0.0-2.0-1.11","ID":"0bjfoo9obp","correct":true},{"rt":null,"stimulus":"<div style=\"font-size:60px;\">+</div>","response":null,"task":"fixation","trial_type":"html-keyboard-response","trial_index":26,"time_elapsed":18666,"internal_node_id":"0.0-2.0-0.12","ID":"0bjfoo9obp"},{"rt":452,"stimulus":"<div style=\"font-size:60px;\">H H H</div>","response":"h","task":"response","distractor":"compatible","correct_response":"h","trial_type":"html-keyboard-response","trial_index":27,"time_elapsed":19119,"internal_node_id":"0.0-2.0-1.12","ID":"0bjfoo9obp","correct":true},{"rt":null,"stimulus":"<div style=\"font-size:60px;\">+</div>","response":null,"task":"fixation","trial_type":"html-keyboard-response","trial_index":28,"time_elapsed":19621,"internal_node_id":"0.0-2.0-0.13","ID":"0bjfoo9obp"},{"rt":535,"stimulus":"<div style=\"font-size:60px;\">J J J</div>","response":"j","task":"response","distractor":"compatible","correct_response":"j","trial_type":"html-keyboard-response","trial_index":29,"time_elapsed":20156,"internal_node_id":"0.0-2.0-1.13","ID":"0bjfoo9obp","correct":true},{"rt":null,"stimulus":"<div style=\"font-size:60px;\">+</div>","response":null,"task":"fixation","trial_type":"html-keyboard-response","trial_index":30,"time_elapsed":20658,"internal_node_id":"0.0-2.0-0.14","ID":"0bjfoo9obp"},{"rt":780,"stimulus":"<div style=\"font-size:60px;\">J F J</div>","response":"f","task":"response","distractor":"incompatible","correct_response":"f","trial_type":"html-keyboard-response","trial_index":31,"time_elapsed":21439,"internal_node_id":"0.0-2.0-1.14","ID":"0bjfoo9obp","correct":true},{"rt":null,"stimulus":"<div style=\"font-size:60px;\">+</div>","response":null,"task":"fixation","trial_type":"html-keyboard-response","trial_index":32,"time_elapsed":21940,"internal_node_id":"0.0-2.0-0.15","ID":"0bjfoo9obp"},{"rt":643,"stimulus":"<div style=\"font-size:60px;\">H F H</div>","response":"f","task":"response","distractor":"incompatible","correct_response":"f","trial_type":"html-keyboard-response","trial_index":33,"time_elapsed":22584,"internal_node_id":"0.0-2.0-1.15","ID":"0bjfoo9obp","correct":true},{"rt":null,"stimulus":"<div style=\"font-size:60px;\">+</div>","response":null,"task":"fixation","trial_type":"html-keyboard-response","trial_index":34,"time_elapsed":23086,"internal_node_id":"0.0-2.0-0.16","ID":"0bjfoo9obp"},{"rt":702,"stimulus":"<div style=\"font-size:60px;\">J D J</div>","response":"d","task":"response","distractor":"incompatible","correct_response":"d","trial_type":"html-keyboard-response","trial_index":35,"time_elapsed":23789,"internal_node_id":"0.0-2.0-1.16","ID":"0bjfoo9obp","correct":true},{"rt":null,"stimulus":"<div style=\"font-size:60px;\">+</div>","response":null,"task":"fixation","trial_type":"html-keyboard-response","trial_index":36,"time_elapsed":24291,"internal_node_id":"0.0-2.0-0.17","ID":"0bjfoo9obp"},{"rt":646,"stimulus":"<div style=\"font-size:60px;\">F H F</div>","response":"h","task":"response","distractor":"incompatible","correct_response":"h","trial_type":"html-keyboard-response","trial_index":37,"time_elapsed":24937,"internal_node_id":"0.0-2.0-1.17","ID":"0bjfoo9obp","correct":true},{"rt":null,"stimulus":"<div style=\"font-size:60px;\">+</div>","response":null,"task":"fixation","trial_type":"html-keyboard-response","trial_index":38,"time_elapsed":25438,"internal_node_id":"0.0-2.0-0.18","ID":"0bjfoo9obp"},{"rt":846,"stimulus":"<div style=\"font-size:60px;\">D D D</div>","response":"d","task":"response","distractor":"compatible","correct_response":"d","trial_type":"html-keyboard-response","trial_index":39,"time_elapsed":26285,"internal_node_id":"0.0-2.0-1.18","ID":"0bjfoo9obp","correct":true},{"rt":null,"stimulus":"<div style=\"font-size:60px;\">+</div>","response":null,"task":"fixation","trial_type":"html-keyboard-response","trial_index":40,"time_elapsed":26787,"internal_node_id":"0.0-2.0-0.19","ID":"0bjfoo9obp"},{"rt":467,"stimulus":"<div style=\"font-size:60px;\">H D H</div>","response":"d","task":"response","distractor":"incompatible","correct_response":"d","trial_type":"html-keyboard-response","trial_index":41,"time_elapsed":27255,"internal_node_id":"0.0-2.0-1.19","ID":"0bjfoo9obp","correct":true},{"rt":null,"stimulus":"<div style=\"font-size:60px;\">+</div>","response":null,"task":"fixation","trial_type":"html-keyboard-response","trial_index":42,"time_elapsed":27757,"internal_node_id":"0.0-2.0-0.20","ID":"0bjfoo9obp"},{"rt":464,"stimulus":"<div style=\"font-size:60px;\">D D D</div>","response":"d","task":"response","distractor":"compatible","correct_response":"d","trial_type":"html-keyboard-response","trial_index":43,"time_elapsed":28222,"internal_node_id":"0.0-2.0-1.20","ID":"0bjfoo9obp","correct":true},{"rt":null,"stimulus":"<div style=\"font-size:60px;\">+</div>","response":null,"task":"fixation","trial_type":"html-keyboard-response","trial_index":44,"time_elapsed":28724,"internal_node_id":"0.0-2.0-0.21","ID":"0bjfoo9obp"},{"rt":485,"stimulus":"<div style=\"font-size:60px;\">F D F</div>","response":"d","task":"response","distractor":"incompatible","correct_response":"d","trial_type":"html-keyboard-response","trial_index":45,"time_elapsed":29211,"internal_node_id":"0.0-2.0-1.21","ID":"0bjfoo9obp","correct":true},{"rt":null,"stimulus":"<div style=\"font-size:60px;\">+</div>","response":null,"task":"fixation","trial_type":"html-keyboard-response","trial_index":46,"time_elapsed":29712,"internal_node_id":"0.0-2.0-0.22","ID":"0bjfoo9obp"},{"rt":670,"stimulus":"<div style=\"font-size:60px;\">F F F</div>","response":"f","task":"response","distractor":"compatible","correct_response":"f","trial_type":"html-keyboard-response","trial_index":47,"time_elapsed":30382,"internal_node_id":"0.0-2.0-1.22","ID":"0bjfoo9obp","correct":true},{"rt":null,"stimulus":"<div style=\"font-size:60px;\">+</div>","response":null,"task":"fixation","trial_type":"html-keyboard-response","trial_index":48,"time_elapsed":30883,"internal_node_id":"0.0-2.0-0.23","ID":"0bjfoo9obp"},{"rt":757,"stimulus":"<div style=\"font-size:60px;\">F J F</div>","response":"j","task":"response","distractor":"incompatible","correct_response":"h","trial_type":"html-keyboard-response","trial_index":49,"time_elapsed":31640,"internal_node_id":"0.0-2.0-1.23","ID":"0bjfoo9obp","correct":false},{"rt":1114,"stimulus":"\n      <p> Thank you for participating. Press a key to save data to osf.</p>\n      ","response":" ","trial_type":"html-keyboard-response","trial_index":50,"time_elapsed":32755,"internal_node_id":"0.0-3.0","ID":"0bjfoo9obp"}]