[{"rt":1599,"stimulus":"\n      <p> Welcome, this is a demo Flanker Experiment</p>\n      <p> If you participate in this experiment, your data will be saved to a repository on the open science foundation. </p>\n      <p> All data is completely anonymous.</p>\n      ","response":" ","trial_type":"html-keyboard-response","trial_index":0,"time_elapsed":1602,"internal_node_id":"0.0-0.0","ID":"99a0qj19rh"},{"rt":1101,"stimulus":"\n        <p>In this experiment, your task is to identify the middle letter as fast and accurately as possible.</p>\n        <p>For example if you saw:</p>\n        <p>F F F </p>\n        <p>You would press the F key on the keyboard as quickly as you can.</p>\n        <br>\n        <p>For example if you saw:</p>\n        <p>H G H </p>\n        <p>You would press the G key on the keyboard as quickly as you can. </p>\n        <p> This demo experiment has 24 trials and takes less than a minute. </p>\n        <p>Press any key to begin.</p>\n      ","response":" ","trial_type":"html-keyboard-response","trial_index":1,"time_elapsed":2703,"internal_node_id":"0.0-1.0","ID":"99a0qj19rh"},{"rt":null,"stimulus":"<div style=\"font-size:60px;\">+</div>","response":null,"task":"fixation","trial_type":"html-keyboard-response","trial_index":2,"time_elapsed":4206,"internal_node_id":"0.0-2.0-0.0","ID":"99a0qj19rh"},{"rt":690,"stimulus":"<div style=\"font-size:60px;\">F F F</div>","response":"f","task":"response","distractor":"compatible","correct_response":"f","trial_type":"html-keyboard-response","trial_index":3,"time_elapsed":4897,"internal_node_id":"0.0-2.0-1.0","ID":"99a0qj19rh","correct":true},{"rt":null,"stimulus":"<div style=\"font-size:60px;\">+</div>","response":null,"task":"fixation","trial_type":"html-keyboard-response","trial_index":4,"time_elapsed":5399,"internal_node_id":"0.0-2.0-0.1","ID":"99a0qj19rh"},{"rt":879,"stimulus":"<div style=\"font-size:60px;\">D H D</div>","response":"h","task":"response","distractor":"incompatible","correct_response":"h","trial_type":"html-keyboard-response","trial_index":5,"time_elapsed":6279,"internal_node_id":"0.0-2.0-1.1","ID":"99a0qj19rh","correct":true},{"rt":null,"stimulus":"<div style=\"font-size:60px;\">+</div>","response":null,"task":"fixation","trial_type":"html-keyboard-response","trial_index":6,"time_elapsed":6780,"internal_node_id":"0.0-2.0-0.2","ID":"99a0qj19rh"},{"rt":713,"stimulus":"<div style=\"font-size:60px;\">H H H</div>","response":"h","task":"response","distractor":"compatible","correct_response":"h","trial_type":"html-keyboard-response","trial_index":7,"time_elapsed":7494,"internal_node_id":"0.0-2.0-1.2","ID":"99a0qj19rh","correct":true},{"rt":null,"stimulus":"<div style=\"font-size:60px;\">+</div>","response":null,"task":"fixation","trial_type":"html-keyboard-response","trial_index":8,"time_elapsed":7995,"internal_node_id":"0.0-2.0-0.3","ID":"99a0qj19rh"},{"rt":670,"stimulus":"<div style=\"font-size:60px;\">J J J</div>","response":"j","task":"response","distractor":"compatible","correct_response":"j","trial_type":"html-keyboard-response","trial_index":9,"time_elapsed":8666,"internal_node_id":"0.0-2.0-1.3","ID":"99a0qj19rh","correct":true},{"rt":null,"stimulus":"<div style=\"font-size:60px;\">+</div>","response":null,"task":"fixation","trial_type":"html-keyboard-response","trial_index":10,"time_elapsed":9167,"internal_node_id":"0.0-2.0-0.4","ID":"99a0qj19rh"},{"rt":713,"stimulus":"<div style=\"font-size:60px;\">F F F</div>","response":"f","task":"response","distractor":"compatible","correct_response":"f","trial_type":"html-keyboard-response","trial_index":11,"time_elapsed":9880,"internal_node_id":"0.0-2.0-1.4","ID":"99a0qj19rh","correct":true},{"rt":null,"stimulus":"<div style=\"font-size:60px;\">+</div>","response":null,"task":"fixation","trial_type":"html-keyboard-response","trial_index":12,"time_elapsed":10382,"internal_node_id":"0.0-2.0-0.5","ID":"99a0qj19rh"},{"rt":747,"stimulus":"<div style=\"font-size:60px;\">J D J</div>","response":"d","task":"response","distractor":"incompatible","correct_response":"d","trial_type":"html-keyboard-response","trial_index":13,"time_elapsed":11129,"internal_node_id":"0.0-2.0-1.5","ID":"99a0qj19rh","correct":true},{"rt":null,"stimulus":"<div style=\"font-size:60px;\">+</div>","response":null,"task":"fixation","trial_type":"html-keyboard-response","trial_index":14,"time_elapsed":11630,"internal_node_id":"0.0-2.0-0.6","ID":"99a0qj19rh"},{"rt":1365,"stimulus":"<div style=\"font-size:60px;\">H H H</div>","response":"h","task":"response","distractor":"compatible","correct_response":"h","trial_type":"html-keyboard-response","trial_index":15,"time_elapsed":12996,"internal_node_id":"0.0-2.0-1.6","ID":"99a0qj19rh","correct":true},{"rt":null,"stimulus":"<div style=\"font-size:60px;\">+</div>","response":null,"task":"fixation","trial_type":"html-keyboard-response","trial_index":16,"time_elapsed":13497,"internal_node_id":"0.0-2.0-0.7","ID":"99a0qj19rh"},{"rt":490,"stimulus":"<div style=\"font-size:60px;\">J J J</div>","response":"j","task":"response","distractor":"compatible","correct_response":"j","trial_type":"html-keyboard-response","trial_index":17,"time_elapsed":13988,"internal_node_id":"0.0-2.0-1.7","ID":"99a0qj19rh","correct":true},{"rt":null,"stimulus":"<div style=\"font-size:60px;\">+</div>","response":null,"task":"fixation","trial_type":"html-keyboard-response","trial_index":18,"time_elapsed":14490,"internal_node_id":"0.0-2.0-0.8","ID":"99a0qj19rh"},{"rt":936,"stimulus":"<div style=\"font-size:60px;\">F H F</div>","response":"h","task":"response","distractor":"incompatible","correct_response":"h","trial_type":"html-keyboard-response","trial_index":19,"time_elapsed":15427,"internal_node_id":"0.0-2.0-1.8","ID":"99a0qj19rh","correct":true},{"rt":null,"stimulus":"<div style=\"font-size:60px;\">+</div>","response":null,"task":"fixation","trial_type":"html-keyboard-response","trial_index":20,"time_elapsed":15928,"internal_node_id":"0.0-2.0-0.9","ID":"99a0qj19rh"},{"rt":667,"stimulus":"<div style=\"font-size:60px;\">H D H</div>","response":"d","task":"response","distractor":"incompatible","correct_response":"d","trial_type":"html-keyboard-response","trial_index":21,"time_elapsed":16596,"internal_node_id":"0.0-2.0-1.9","ID":"99a0qj19rh","correct":true},{"rt":null,"stimulus":"<div style=\"font-size:60px;\">+</div>","response":null,"task":"fixation","trial_type":"html-keyboard-response","trial_index":22,"time_elapsed":17097,"internal_node_id":"0.0-2.0-0.10","ID":"99a0qj19rh"},{"rt":624,"stimulus":"<div style=\"font-size:60px;\">F D F</div>","response":"d","task":"response","distractor":"incompatible","correct_response":"d","trial_type":"html-keyboard-response","trial_index":23,"time_elapsed":17722,"internal_node_id":"0.0-2.0-1.10","ID":"99a0qj19rh","correct":true},{"rt":null,"stimulus":"<div style=\"font-size:60px;\">+</div>","response":null,"task":"fixation","trial_type":"html-keyboard-response","trial_index":24,"time_elapsed":18224,"internal_node_id":"0.0-2.0-0.11","ID":"99a0qj19rh"},{"rt":577,"stimulus":"<div style=\"font-size:60px;\">J H J</div>","response":"h","task":"response","distractor":"incompatible","correct_response":"h","trial_type":"html-keyboard-response","trial_index":25,"time_elapsed":18802,"internal_node_id":"0.0-2.0-1.11","ID":"99a0qj19rh","correct":true},{"rt":null,"stimulus":"<div style=\"font-size:60px;\">+</div>","response":null,"task":"fixation","trial_type":"html-keyboard-response","trial_index":26,"time_elapsed":19304,"internal_node_id":"0.0-2.0-0.12","ID":"99a0qj19rh"},{"rt":645,"stimulus":"<div style=\"font-size:60px;\">D D D</div>","response":"d","task":"response","distractor":"compatible","correct_response":"d","trial_type":"html-keyboard-response","trial_index":27,"time_elapsed":19950,"internal_node_id":"0.0-2.0-1.12","ID":"99a0qj19rh","correct":true},{"rt":null,"stimulus":"<div style=\"font-size:60px;\">+</div>","response":null,"task":"fixation","trial_type":"html-keyboard-response","trial_index":28,"time_elapsed":20451,"internal_node_id":"0.0-2.0-0.13","ID":"99a0qj19rh"},{"rt":645,"stimulus":"<div style=\"font-size:60px;\">J J J</div>","response":"j","task":"response","distractor":"compatible","correct_response":"j","trial_type":"html-keyboard-response","trial_index":29,"time_elapsed":21097,"internal_node_id":"0.0-2.0-1.13","ID":"99a0qj19rh","correct":true},{"rt":null,"stimulus":"<div style=\"font-size:60px;\">+</div>","response":null,"task":"fixation","trial_type":"html-keyboard-response","trial_index":30,"time_elapsed":21599,"internal_node_id":"0.0-2.0-0.14","ID":"99a0qj19rh"},{"rt":780,"stimulus":"<div style=\"font-size:60px;\">H F H</div>","response":"f","task":"response","distractor":"incompatible","correct_response":"f","trial_type":"html-keyboard-response","trial_index":31,"time_elapsed":22380,"internal_node_id":"0.0-2.0-1.14","ID":"99a0qj19rh","correct":true},{"rt":null,"stimulus":"<div style=\"font-size:60px;\">+</div>","response":null,"task":"fixation","trial_type":"html-keyboard-response","trial_index":32,"time_elapsed":22881,"internal_node_id":"0.0-2.0-0.15","ID":"99a0qj19rh"},{"rt":510,"stimulus":"<div style=\"font-size:60px;\">D F D</div>","response":"f","task":"response","distractor":"incompatible","correct_response":"f","trial_type":"html-keyboard-response","trial_index":33,"time_elapsed":23393,"internal_node_id":"0.0-2.0-1.15","ID":"99a0qj19rh","correct":true},{"rt":null,"stimulus":"<div style=\"font-size:60px;\">+</div>","response":null,"task":"fixation","trial_type":"html-keyboard-response","trial_index":34,"time_elapsed":23894,"internal_node_id":"0.0-2.0-0.16","ID":"99a0qj19rh"},{"rt":487,"stimulus":"<div style=\"font-size:60px;\">F F F</div>","response":"f","task":"response","distractor":"compatible","correct_response":"f","trial_type":"html-keyboard-response","trial_index":35,"time_elapsed":24383,"internal_node_id":"0.0-2.0-1.16","ID":"99a0qj19rh","correct":true},{"rt":null,"stimulus":"<div style=\"font-size:60px;\">+</div>","response":null,"task":"fixation","trial_type":"html-keyboard-response","trial_index":36,"time_elapsed":24884,"internal_node_id":"0.0-2.0-0.17","ID":"99a0qj19rh"},{"rt":666,"stimulus":"<div style=\"font-size:60px;\">F J F</div>","response":"j","task":"response","distractor":"incompatible","correct_response":"h","trial_type":"html-keyboard-response","trial_index":37,"time_elapsed":25552,"internal_node_id":"0.0-2.0-1.17","ID":"99a0qj19rh","correct":false},{"rt":null,"stimulus":"<div style=\"font-size:60px;\">+</div>","response":null,"task":"fixation","trial_type":"html-keyboard-response","trial_index":38,"time_elapsed":26053,"internal_node_id":"0.0-2.0-0.18","ID":"99a0qj19rh"},{"rt":961,"stimulus":"<div style=\"font-size:60px;\">D J D</div>","response":"j","task":"response","distractor":"incompatible","correct_response":"h","trial_type":"html-keyboard-response","trial_index":39,"time_elapsed":27015,"internal_node_id":"0.0-2.0-1.18","ID":"99a0qj19rh","correct":false},{"rt":null,"stimulus":"<div style=\"font-size:60px;\">+</div>","response":null,"task":"fixation","trial_type":"html-keyboard-response","trial_index":40,"time_elapsed":27517,"internal_node_id":"0.0-2.0-0.19","ID":"99a0qj19rh"},{"rt":690,"stimulus":"<div style=\"font-size:60px;\">D D D</div>","response":"d","task":"response","distractor":"compatible","correct_response":"d","trial_type":"html-keyboard-response","trial_index":41,"time_elapsed":28208,"internal_node_id":"0.0-2.0-1.19","ID":"99a0qj19rh","correct":true},{"rt":null,"stimulus":"<div style=\"font-size:60px;\">+</div>","response":null,"task":"fixation","trial_type":"html-keyboard-response","trial_index":42,"time_elapsed":28710,"internal_node_id":"0.0-2.0-0.20","ID":"99a0qj19rh"},{"rt":757,"stimulus":"<div style=\"font-size:60px;\">H J H</div>","response":"j","task":"response","distractor":"incompatible","correct_response":"h","trial_type":"html-keyboard-response","trial_index":43,"time_elapsed":29467,"internal_node_id":"0.0-2.0-1.20","ID":"99a0qj19rh","correct":false},{"rt":null,"stimulus":"<div style=\"font-size:60px;\">+</div>","response":null,"task":"fixation","trial_type":"html-keyboard-response","trial_index":44,"time_elapsed":29968,"internal_node_id":"0.0-2.0-0.21","ID":"99a0qj19rh"},{"rt":805,"stimulus":"<div style=\"font-size:60px;\">D D D</div>","response":"d","task":"response","distractor":"compatible","correct_response":"d","trial_type":"html-keyboard-response","trial_index":45,"time_elapsed":30773,"internal_node_id":"0.0-2.0-1.21","ID":"99a0qj19rh","correct":true},{"rt":null,"stimulus":"<div style=\"font-size:60px;\">+</div>","response":null,"task":"fixation","trial_type":"html-keyboard-response","trial_index":46,"time_elapsed":31275,"internal_node_id":"0.0-2.0-0.22","ID":"99a0qj19rh"},{"rt":824,"stimulus":"<div style=\"font-size:60px;\">J F J</div>","response":"f","task":"response","distractor":"incompatible","correct_response":"f","trial_type":"html-keyboard-response","trial_index":47,"time_elapsed":32099,"internal_node_id":"0.0-2.0-1.22","ID":"99a0qj19rh","correct":true},{"rt":null,"stimulus":"<div style=\"font-size:60px;\">+</div>","response":null,"task":"fixation","trial_type":"html-keyboard-response","trial_index":48,"time_elapsed":32600,"internal_node_id":"0.0-2.0-0.23","ID":"99a0qj19rh"},{"rt":670,"stimulus":"<div style=\"font-size:60px;\">H H H</div>","response":"h","task":"response","distractor":"compatible","correct_response":"h","trial_type":"html-keyboard-response","trial_index":49,"time_elapsed":33270,"internal_node_id":"0.0-2.0-1.23","ID":"99a0qj19rh","correct":true},{"rt":1597,"stimulus":"\n      <p> Thank you for participating. Press a key to save data to osf.</p>\n      ","response":" ","trial_type":"html-keyboard-response","trial_index":50,"time_elapsed":34867,"internal_node_id":"0.0-3.0","ID":"99a0qj19rh"}]