[{"rt":1747,"stimulus":"\n      <p> Welcome, this is a demo Flanker Experiment</p>\n      <p> If you participate in this experiment, your data will be saved to a repository on the open science foundation. </p>\n      <p> All data is completely anonymous.</p>\n      ","response":" ","trial_type":"html-keyboard-response","trial_index":0,"time_elapsed":1750,"internal_node_id":"0.0-0.0","ID":"k70bhqunwb"},{"rt":1482,"stimulus":"\n        <p>In this experiment, your task is to identify the middle letter as fast and accurately as possible.</p>\n        <p>For example if you saw:</p>\n        <p>F F F </p>\n        <p>You would press the F key on the keyboard as quickly as you can.</p>\n        <br>\n        <p>For example if you saw:</p>\n        <p>H G H </p>\n        <p>You would press the G key on the keyboard as quickly as you can. </p>\n        <p> This demo experiment has 24 trials and takes less than a minute. </p>\n        <p>Press any key to begin.</p>\n      ","response":" ","trial_type":"html-keyboard-response","trial_index":1,"time_elapsed":3233,"internal_node_id":"0.0-1.0","ID":"k70bhqunwb"},{"rt":null,"stimulus":"<div style=\"font-size:60px;\">+</div>","response":null,"task":"fixation","trial_type":"html-keyboard-response","trial_index":2,"time_elapsed":4737,"internal_node_id":"0.0-2.0-0.0","ID":"k70bhqunwb"},{"rt":724,"stimulus":"<div style=\"font-size:60px;\">J D J</div>","response":"d","task":"response","distractor":"incompatible","correct_response":"d","trial_type":"html-keyboard-response","trial_index":3,"time_elapsed":5462,"internal_node_id":"0.0-2.0-1.0","ID":"k70bhqunwb","correct":true},{"rt":null,"stimulus":"<div style=\"font-size:60px;\">+</div>","response":null,"task":"fixation","trial_type":"html-keyboard-response","trial_index":4,"time_elapsed":5963,"internal_node_id":"0.0-2.0-0.1","ID":"k70bhqunwb"},{"rt":735,"stimulus":"<div style=\"font-size:60px;\">H H H</div>","response":"f","task":"response","distractor":"compatible","correct_response":"h","trial_type":"html-keyboard-response","trial_index":5,"time_elapsed":6699,"internal_node_id":"0.0-2.0-1.1","ID":"k70bhqunwb","correct":false},{"rt":null,"stimulus":"<div style=\"font-size:60px;\">+</div>","response":null,"task":"fixation","trial_type":"html-keyboard-response","trial_index":6,"time_elapsed":7201,"internal_node_id":"0.0-2.0-0.2","ID":"k70bhqunwb"},{"rt":564,"stimulus":"<div style=\"font-size:60px;\">D D D</div>","response":"d","task":"response","distractor":"compatible","correct_response":"d","trial_type":"html-keyboard-response","trial_index":7,"time_elapsed":7768,"internal_node_id":"0.0-2.0-1.2","ID":"k70bhqunwb","correct":true},{"rt":null,"stimulus":"<div style=\"font-size:60px;\">+</div>","response":null,"task":"fixation","trial_type":"html-keyboard-response","trial_index":8,"time_elapsed":8269,"internal_node_id":"0.0-2.0-0.3","ID":"k70bhqunwb"},{"rt":758,"stimulus":"<div style=\"font-size:60px;\">D F D</div>","response":"f","task":"response","distractor":"incompatible","correct_response":"f","trial_type":"html-keyboard-response","trial_index":9,"time_elapsed":9028,"internal_node_id":"0.0-2.0-1.3","ID":"k70bhqunwb","correct":true},{"rt":null,"stimulus":"<div style=\"font-size:60px;\">+</div>","response":null,"task":"fixation","trial_type":"html-keyboard-response","trial_index":10,"time_elapsed":9530,"internal_node_id":"0.0-2.0-0.4","ID":"k70bhqunwb"},{"rt":644,"stimulus":"<div style=\"font-size:60px;\">H H H</div>","response":"h","task":"response","distractor":"compatible","correct_response":"h","trial_type":"html-keyboard-response","trial_index":11,"time_elapsed":10175,"internal_node_id":"0.0-2.0-1.4","ID":"k70bhqunwb","correct":true},{"rt":null,"stimulus":"<div style=\"font-size:60px;\">+</div>","response":null,"task":"fixation","trial_type":"html-keyboard-response","trial_index":12,"time_elapsed":10676,"internal_node_id":"0.0-2.0-0.5","ID":"k70bhqunwb"},{"rt":737,"stimulus":"<div style=\"font-size:60px;\">F F F</div>","response":"f","task":"response","distractor":"compatible","correct_response":"f","trial_type":"html-keyboard-response","trial_index":13,"time_elapsed":11413,"internal_node_id":"0.0-2.0-1.5","ID":"k70bhqunwb","correct":true},{"rt":null,"stimulus":"<div style=\"font-size:60px;\">+</div>","response":null,"task":"fixation","trial_type":"html-keyboard-response","trial_index":14,"time_elapsed":11914,"internal_node_id":"0.0-2.0-0.6","ID":"k70bhqunwb"},{"rt":622,"stimulus":"<div style=\"font-size:60px;\">J J J</div>","response":"j","task":"response","distractor":"compatible","correct_response":"j","trial_type":"html-keyboard-response","trial_index":15,"time_elapsed":12537,"internal_node_id":"0.0-2.0-1.6","ID":"k70bhqunwb","correct":true},{"rt":null,"stimulus":"<div style=\"font-size:60px;\">+</div>","response":null,"task":"fixation","trial_type":"html-keyboard-response","trial_index":16,"time_elapsed":13039,"internal_node_id":"0.0-2.0-0.7","ID":"k70bhqunwb"},{"rt":645,"stimulus":"<div style=\"font-size:60px;\">D H D</div>","response":"h","task":"response","distractor":"incompatible","correct_response":"h","trial_type":"html-keyboard-response","trial_index":17,"time_elapsed":13686,"internal_node_id":"0.0-2.0-1.7","ID":"k70bhqunwb","correct":true},{"rt":null,"stimulus":"<div style=\"font-size:60px;\">+</div>","response":null,"task":"fixation","trial_type":"html-keyboard-response","trial_index":18,"time_elapsed":14188,"internal_node_id":"0.0-2.0-0.8","ID":"k70bhqunwb"},{"rt":621,"stimulus":"<div style=\"font-size:60px;\">D J D</div>","response":"j","task":"response","distractor":"incompatible","correct_response":"h","trial_type":"html-keyboard-response","trial_index":19,"time_elapsed":14810,"internal_node_id":"0.0-2.0-1.8","ID":"k70bhqunwb","correct":false},{"rt":null,"stimulus":"<div style=\"font-size:60px;\">+</div>","response":null,"task":"fixation","trial_type":"html-keyboard-response","trial_index":20,"time_elapsed":15312,"internal_node_id":"0.0-2.0-0.9","ID":"k70bhqunwb"},{"rt":555,"stimulus":"<div style=\"font-size:60px;\">J J J</div>","response":"j","task":"response","distractor":"compatible","correct_response":"j","trial_type":"html-keyboard-response","trial_index":21,"time_elapsed":15868,"internal_node_id":"0.0-2.0-1.9","ID":"k70bhqunwb","correct":true},{"rt":null,"stimulus":"<div style=\"font-size:60px;\">+</div>","response":null,"task":"fixation","trial_type":"html-keyboard-response","trial_index":22,"time_elapsed":16369,"internal_node_id":"0.0-2.0-0.10","ID":"k70bhqunwb"},{"rt":532,"stimulus":"<div style=\"font-size:60px;\">F H F</div>","response":"h","task":"response","distractor":"incompatible","correct_response":"h","trial_type":"html-keyboard-response","trial_index":23,"time_elapsed":16902,"internal_node_id":"0.0-2.0-1.10","ID":"k70bhqunwb","correct":true},{"rt":null,"stimulus":"<div style=\"font-size:60px;\">+</div>","response":null,"task":"fixation","trial_type":"html-keyboard-response","trial_index":24,"time_elapsed":17404,"internal_node_id":"0.0-2.0-0.11","ID":"k70bhqunwb"},{"rt":827,"stimulus":"<div style=\"font-size:60px;\">F D F</div>","response":"d","task":"response","distractor":"incompatible","correct_response":"d","trial_type":"html-keyboard-response","trial_index":25,"time_elapsed":18231,"internal_node_id":"0.0-2.0-1.11","ID":"k70bhqunwb","correct":true},{"rt":null,"stimulus":"<div style=\"font-size:60px;\">+</div>","response":null,"task":"fixation","trial_type":"html-keyboard-response","trial_index":26,"time_elapsed":18733,"internal_node_id":"0.0-2.0-0.12","ID":"k70bhqunwb"},{"rt":555,"stimulus":"<div style=\"font-size:60px;\">J H J</div>","response":"h","task":"response","distractor":"incompatible","correct_response":"h","trial_type":"html-keyboard-response","trial_index":27,"time_elapsed":19288,"internal_node_id":"0.0-2.0-1.12","ID":"k70bhqunwb","correct":true},{"rt":null,"stimulus":"<div style=\"font-size:60px;\">+</div>","response":null,"task":"fixation","trial_type":"html-keyboard-response","trial_index":28,"time_elapsed":19789,"internal_node_id":"0.0-2.0-0.13","ID":"k70bhqunwb"},{"rt":984,"stimulus":"<div style=\"font-size:60px;\">H F H</div>","response":"f","task":"response","distractor":"incompatible","correct_response":"f","trial_type":"html-keyboard-response","trial_index":29,"time_elapsed":20773,"internal_node_id":"0.0-2.0-1.13","ID":"k70bhqunwb","correct":true},{"rt":null,"stimulus":"<div style=\"font-size:60px;\">+</div>","response":null,"task":"fixation","trial_type":"html-keyboard-response","trial_index":30,"time_elapsed":21274,"internal_node_id":"0.0-2.0-0.14","ID":"k70bhqunwb"},{"rt":532,"stimulus":"<div style=\"font-size:60px;\">H H H</div>","response":"h","task":"response","distractor":"compatible","correct_response":"h","trial_type":"html-keyboard-response","trial_index":31,"time_elapsed":21807,"internal_node_id":"0.0-2.0-1.14","ID":"k70bhqunwb","correct":true},{"rt":null,"stimulus":"<div style=\"font-size:60px;\">+</div>","response":null,"task":"fixation","trial_type":"html-keyboard-response","trial_index":32,"time_elapsed":22308,"internal_node_id":"0.0-2.0-0.15","ID":"k70bhqunwb"},{"rt":782,"stimulus":"<div style=\"font-size:60px;\">H D H</div>","response":"d","task":"response","distractor":"incompatible","correct_response":"d","trial_type":"html-keyboard-response","trial_index":33,"time_elapsed":23091,"internal_node_id":"0.0-2.0-1.15","ID":"k70bhqunwb","correct":true},{"rt":null,"stimulus":"<div style=\"font-size:60px;\">+</div>","response":null,"task":"fixation","trial_type":"html-keyboard-response","trial_index":34,"time_elapsed":23592,"internal_node_id":"0.0-2.0-0.16","ID":"k70bhqunwb"},{"rt":735,"stimulus":"<div style=\"font-size:60px;\">H J H</div>","response":"j","task":"response","distractor":"incompatible","correct_response":"h","trial_type":"html-keyboard-response","trial_index":35,"time_elapsed":24328,"internal_node_id":"0.0-2.0-1.16","ID":"k70bhqunwb","correct":false},{"rt":null,"stimulus":"<div style=\"font-size:60px;\">+</div>","response":null,"task":"fixation","trial_type":"html-keyboard-response","trial_index":36,"time_elapsed":24830,"internal_node_id":"0.0-2.0-0.17","ID":"k70bhqunwb"},{"rt":511,"stimulus":"<div style=\"font-size:60px;\">J J J</div>","response":"j","task":"response","distractor":"compatible","correct_response":"j","trial_type":"html-keyboard-response","trial_index":37,"time_elapsed":25341,"internal_node_id":"0.0-2.0-1.17","ID":"k70bhqunwb","correct":true},{"rt":null,"stimulus":"<div style=\"font-size:60px;\">+</div>","response":null,"task":"fixation","trial_type":"html-keyboard-response","trial_index":38,"time_elapsed":25844,"internal_node_id":"0.0-2.0-0.18","ID":"k70bhqunwb"},{"rt":778,"stimulus":"<div style=\"font-size:60px;\">D D D</div>","response":"d","task":"response","distractor":"compatible","correct_response":"d","trial_type":"html-keyboard-response","trial_index":39,"time_elapsed":26622,"internal_node_id":"0.0-2.0-1.18","ID":"k70bhqunwb","correct":true},{"rt":null,"stimulus":"<div style=\"font-size:60px;\">+</div>","response":null,"task":"fixation","trial_type":"html-keyboard-response","trial_index":40,"time_elapsed":27124,"internal_node_id":"0.0-2.0-0.19","ID":"k70bhqunwb"},{"rt":826,"stimulus":"<div style=\"font-size:60px;\">F F F</div>","response":"f","task":"response","distractor":"compatible","correct_response":"f","trial_type":"html-keyboard-response","trial_index":41,"time_elapsed":27951,"internal_node_id":"0.0-2.0-1.19","ID":"k70bhqunwb","correct":true},{"rt":null,"stimulus":"<div style=\"font-size:60px;\">+</div>","response":null,"task":"fixation","trial_type":"html-keyboard-response","trial_index":42,"time_elapsed":28452,"internal_node_id":"0.0-2.0-0.20","ID":"k70bhqunwb"},{"rt":657,"stimulus":"<div style=\"font-size:60px;\">D D D</div>","response":"d","task":"response","distractor":"compatible","correct_response":"d","trial_type":"html-keyboard-response","trial_index":43,"time_elapsed":29110,"internal_node_id":"0.0-2.0-1.20","ID":"k70bhqunwb","correct":true},{"rt":null,"stimulus":"<div style=\"font-size:60px;\">+</div>","response":null,"task":"fixation","trial_type":"html-keyboard-response","trial_index":44,"time_elapsed":29611,"internal_node_id":"0.0-2.0-0.21","ID":"k70bhqunwb"},{"rt":849,"stimulus":"<div style=\"font-size:60px;\">F J F</div>","response":"j","task":"response","distractor":"incompatible","correct_response":"h","trial_type":"html-keyboard-response","trial_index":45,"time_elapsed":30460,"internal_node_id":"0.0-2.0-1.21","ID":"k70bhqunwb","correct":false},{"rt":null,"stimulus":"<div style=\"font-size:60px;\">+</div>","response":null,"task":"fixation","trial_type":"html-keyboard-response","trial_index":46,"time_elapsed":30963,"internal_node_id":"0.0-2.0-0.22","ID":"k70bhqunwb"},{"rt":1025,"stimulus":"<div style=\"font-size:60px;\">J F J</div>","response":"f","task":"response","distractor":"incompatible","correct_response":"f","trial_type":"html-keyboard-response","trial_index":47,"time_elapsed":31988,"internal_node_id":"0.0-2.0-1.22","ID":"k70bhqunwb","correct":true},{"rt":null,"stimulus":"<div style=\"font-size:60px;\">+</div>","response":null,"task":"fixation","trial_type":"html-keyboard-response","trial_index":48,"time_elapsed":32490,"internal_node_id":"0.0-2.0-0.23","ID":"k70bhqunwb"},{"rt":602,"stimulus":"<div style=\"font-size:60px;\">F F F</div>","response":"f","task":"response","distractor":"compatible","correct_response":"f","trial_type":"html-keyboard-response","trial_index":49,"time_elapsed":33093,"internal_node_id":"0.0-2.0-1.23","ID":"k70bhqunwb","correct":true},{"rt":1801,"stimulus":"\n      <p> Thank you for participating. Press a key to save data to osf.</p>\n      ","response":" ","trial_type":"html-keyboard-response","trial_index":50,"time_elapsed":34894,"internal_node_id":"0.0-3.0","ID":"k70bhqunwb"}]